! $Id$
!
! Note that T_sfc is included here, but it is not currently used. It is
! included here to facilitate a transition to using T_sfc in the future
! if needed.
Time[s]    'latent_ht[W/m^2]' 'sens_ht[W/m^2]'  T_sfc[K] 
63003.0     109.811            220.065          286.0  
73803.0     93.037             195.006          286.0     
84603.0     43.464             21.428           286.0     
95403.0     26.399             -12.149          286.0     
106203.0    2.358              12.774           286.0     
117003.0    37.096             7.976            286.0     
127803.0    29.637             0.603            286.0     
138603.0    33.558             17.642           286.0     
149403.0    64.752             15.171           286.0     
160203.0    68.126             8.217            286.0     
171003.0    26.383             21.48            286.0     
181803.0    12.759             19.617           286.0     
192603.0    31.626             -0.22            286.0     
203403.0    18.438             19.383           286.0     
214203.0    13.724             25.729           286.0     
225003.0    22.436             40.886           286.0     
235803.0    104.828            65.675           286.0      
246603.0    91.798             81.443           286.0     
257403.0    33.906             13.435           286.0     
268204.0    -0.839             9.464            286.0     
279004.0    9.71               11.685           286.0     
289804.0    9.703              14.239           286.0     
300604.0    6.398              17.361           286.0     
311404.0    101.053            76.849           286.0     
322204.0    166.853            177.382          286.0     
333004.0    130.134            179.364          286.0     
343804.0    56.757             20.904           286.0     
354604.0    -9.129             -20.51           286.0        
365404.0    7.508              -9.934           286.0          
376204.0    -8.018             9.755            286.0        
387004.0    -5.856             5.49             286.0        
397804.0    63.667             70.605           286.0        
408604.0    128.016            230.75           286.0        
419404.0    132.872            171.325          286.0        
430204.0    54.726             21.314           286.0        
441004.0    -4.956             -5.618           286.0        
451804.0    -3.01              -31.841          286.0        
462604.0    -14.824            6.232            286.0        
473404.0    -9.261             2.233            286.0        
484204.0    58.146             72.315           286.0        
495004.0    133.452            222.465          286.0        
505804.0    114.027            152.421          286.0        
516604.0    23.374             -4.973           286.0        
527404.0    -11.277            -29.2            286.0        
538204.0    -14.637            -29.363          286.0        
549004.0    -14.402            -20.69           286.0        
559804.0    -18.112            -15.354          286.0        
570604.0    32.718             23.4             286.0        
581404.0    71.548             123.576          286.0        
592204.0    55.867             82.253           286.0        
603004.0    14.476             -4.393           286.0        
613804.0    3.074              -11.954          286.0        
624604.0    2.025              -10.07           286.0        
635404.0    29.917             -46.108          286.0        
646204.0    31.238             -56.448          286.0        
657004.0    101.427            44.729           286.0        
667804.0    189.496            210.828          286.0        
678604.0    141.845            190.058          286.0        
689404.0    51.351             12.916           286.0        
700204.0    12.797             -47.25           286.0        
711004.0    5.776              -36.91           286.0        
721804.0    2.709              -33.156          286.0        
732604.0    0.604              -25.883          286.0        
743404.0    51.961             90.047           286.0        
754204.0    108.244            287.887          286.0        
765004.0    83.347             233.758          286.0        
775804.0    22.031             29.54            286.0        
786604.0    0.33               -17.238          286.0        
797404.0    3.194              -10.711          286.0        
808204.0    0.627              -3.831           286.0        
819004.0    1.87               -1.942           286.0        
829804.0    34.118             51.76            286.0        
840604.0    68.713             168.425          286.0        
851404.0    54.186             121.784          286.0        
862204.0    23.053             7.333            286.0        
873004.0    3.955              13.712           286.0        
883804.0    10.547             2.986            286.0        
894604.0    9.268              2.265            286.0        
905404.0    -10.125            -6.737           286.0        
916204.0    76.495             73.867           286.0        
927004.0    165.275            217.681          286.0        
937804.0    104.771            230.783          286.0        
948604.0    26.267             19.778           286.0        
959404.0    -3.564             -19.887          286.0        
970204.0    -4.395             -11.945          286.0        
981004.0    -3.373             -6.393           286.0        
991804.0    -5.207             -4.82            286.0        
1002604.0   63.08              78.979           286.0        
1013404.0   120.939            251.71           286.0        
1024204.0   91.292             206.718          286.0        
1035004.0   24.717             16.672           286.0        
1045804.0   -2.353             -16.979          286.0        
1056604.0   -3.617             -11.304          286.0        
1067404.0   -0.996             -11.857          286.0        
1078204.0   -5.76              -8.027           286.0        
1089004.0   53.96              77.335           286.0        
1099804.0   84.942             229.25           286.0        
1110604.0   73.901             173.352          286.0        
1121404.0   15.684             17.362           286.0        
1132204.0   0.517              -16.893          286.0        
1143004.0   -3.817             -3.567           286.0        
1153804.0   -3.652             -6.956           286.0        
1164604.0   5.434              -17.375          286.0        
1175404.0   53.294             40.431           286.0        
1186204.0   68.262             154.612          286.0        
1197004.0   62.898             158.807          286.0        
1207804.0   30.391             26.805           286.0        
1218604.0   -13.254            -16.173          286.0        
1229404.0   -14.623            -18.417          286.0        
1240204.0   -0.384             -6.613           286.0        
1251004.0   0.586              -5.121           286.0        
1261804.0   44.124             34.979           286.0        
1272604.0   95.065             172.854          286.0        
1283404.0   91.806             134.258          286.0        
1294204.0   33.406             -6.569           286.0        
1305004.0   -1.38              3.4              286.0        
1315804.0   20.115             -0.367           286.0        
1326604.0   25.481             7.188            286.0        
1337404.0   26.243             0.16             286.0        
1348204.0   33.736             10.848           286.0        
1359004.0   43.391             26.931           286.0        
1369804.0   48.919             21.244           286.0        
1380604.0   28.95              19.615           286.0        
1391404.0   59.394             -4.912           286.0        
1402204.0   17.85              8.253            286.0        
1413004.0   10.678             2.451            286.0        
1423804.0   13.912             3.086            286.0        
1434604.0   34.612             5.04             286.0        
1445404.0   56.62              31.87            286.0        
1456204.0   56.274             21.559           286.0        
1467004.0   15.718             5.59             286.0        
1477804.0   5.22               0.885            286.0        
1488604.0   4.662              1.051            286.0        
1499404.0   4.102              0.713            286.0        
1510204.0   5.137              -0.376           286.0        
1521004.0   26.24              19.744           286.0        
1531804.0   48.229             20.645           286.0        
1542604.0   37.721             18.4             286.0        
1553404.0   14.99              6.121            286.0        
1564204.0   5.31               3.228            286.0        
1575004.0   6.725              4.947            286.0        
1585804.0   18.634             1.658            286.0        
1596604.0   15.12              -5.182           286.0        
1607404.0   76.772             20.353           286.0        
1618204.0   166.918            106.684          286.0        
1629004.0   150.7              163.742          286.0        
1639804.0   39.973             17.771           286.0        
1650604.0   -13.132            -9.448           286.0        
1661404.0   -11.62             -0.316           286.0        
1672204.0   -7.845             7.497            286.0        
1683004.0   -1.796             1.044            286.0        
1693804.0   106.984            82.519           286.0        
1704604.0   191.116            246.186          286.0        
1715404.0   194.728            165.732          286.0        
1726204.0   44.541             19.457           286.0        
1737004.0   -11.569            -22.257          286.0        
1747804.0   -5.696             -15.497          286.0        
1758604.0   -6.949             -13.308          286.0        
1769404.0   -0.782             -0.636           286.0        
1780204.0   27.389             18.903           286.0        
1791004.0   69.648             44.17            286.0        
1801804.0   56.93              67.965           286.0        
1812604.0   28.275             -1.736           286.0        
1823404.0   2.495              -8.436           286.0        
1834204.0   -5.194             0.595            286.0        
1845004.0   -2.943             -1.858           286.0        
1931404.0   0.0E+0             0.0E+0           286.0        
